File: resources/bayes_classifier/dsc_0264_rgb_pixels_foam.csv
 ,Label,Area,Mean,X,Y
1,DSC_0264.JPG,0,115,436.000,836.000
3,DSC_0264.JPG,0,159,659.500,487.500
5,DSC_0264.JPG,0,182,707.500,699.500
7,DSC_0264.JPG,0,163,1179.500,379.500
9,DSC_0264.JPG,0,79,1267.500,603.500
11,DSC_0264.JPG,0,106,1427.500,375.500
13,DSC_0264.JPG,0,73,1927.500,395.500
15,DSC_0264.JPG,0,206,1907.500,503.500
17,DSC_0264.JPG,0,90,1627.500,1035.500
19,DSC_0264.JPG,0,70,1435.500,1219.500
21,DSC_0264.JPG,0,142,1823.500,1171.500
23,DSC_0264.JPG,0,153,1659.500,1363.500
25,DSC_0264.JPG,0,112,1995.500,1767.500
27,DSC_0264.JPG,0,68,2235.500,1859.500
29,DSC_0264.JPG,0,107,2227.500,1519.500
31,DSC_0264.JPG,0,75,2447.500,1759.500
33,DSC_0264.JPG,0,80,2687.500,1583.500
35,DSC_0264.JPG,0,140,2823.500,1459.500
37,DSC_0264.JPG,0,131,2567.500,1167.500
39,DSC_0264.JPG,0,108,2823.500,883.500
41,DSC_0264.JPG,0,109,2487.500,479.500
43,DSC_0264.JPG,0,120,2987.500,375.500
45,DSC_0264.JPG,0,151,3347.500,671.500
47,DSC_0264.JPG,0,109,3411.500,1075.500
49,DSC_0264.JPG,0,155,3367.500,1435.500
51,DSC_0264.JPG,0,199,3407.500,1815.500
53,DSC_0264.JPG,0,108,3411.500,2311.500
55,DSC_0264.JPG,0,109,3391.500,2631.500
57,DSC_0264.JPG,0,180,3351.500,2959.500
59,DSC_0264.JPG,0,144,2979.500,3375.500
61,DSC_0264.JPG,0,152,3107.500,3199.500
63,DSC_0264.JPG,0,119,2863.500,2767.500
65,DSC_0264.JPG,0,78,2807.500,2627.500
67,DSC_0264.JPG,0,157,2559.500,2451.500
69,DSC_0264.JPG,0,173,2435.500,2327.500
71,DSC_0264.JPG,0,167,2219.500,2107.500
73,DSC_0264.JPG,0,108,2319.500,1907.500
75,DSC_0264.JPG,0,71,1907.500,1803.500
77,DSC_0264.JPG,0,93,1755.500,1979.500
79,DSC_0264.JPG,0,45,1567.500,2047.500
81,DSC_0264.JPG,0,61,1351.500,1895.500
83,DSC_0264.JPG,0,35,1047.500,1835.500
85,DSC_0264.JPG,0,85,955.500,1987.500
87,DSC_0264.JPG,0,142,1007.500,2151.500
89,DSC_0264.JPG,0,111,1015.500,1675.500
91,DSC_0264.JPG,0,95,971.500,1591.500
93,DSC_0264.JPG,0,118,831.500,1807.500
95,DSC_0264.JPG,0,117,399.500,1747.500
97,DSC_0264.JPG,0,177,331.500,1999.500
99,DSC_0264.JPG,0,177,427.500,2259.500
101,DSC_0264.JPG,0,46,499.500,2443.500
103,DSC_0264.JPG,0,198,743.500,2411.500
105,DSC_0264.JPG,0,128,623.500,2463.500
107,DSC_0264.JPG,0,186,443.500,2587.500
109,DSC_0264.JPG,0,82,435.500,2875.500
111,DSC_0264.JPG,0,131,567.500,3287.500
113,DSC_0264.JPG,0,154,531.500,3087.500
115,DSC_0264.JPG,0,92,763.500,3395.500
117,DSC_0264.JPG,0,194,607.500,3051.500
119,DSC_0264.JPG,0,51,847.500,3375.500
121,DSC_0264.JPG,0,58,1027.500,3455.500
123,DSC_0264.JPG,0,173,1567.500,3515.500
125,DSC_0264.JPG,0,139,1647.500,3375.500
127,DSC_0264.JPG,0,171,1667.500,3307.500
129,DSC_0264.JPG,0,132,1351.500,3071.500
131,DSC_0264.JPG,0,29,1639.500,2659.500
133,DSC_0264.JPG,0,100,1687.500,2759.500
135,DSC_0264.JPG,0,104,1903.500,3019.500
137,DSC_0264.JPG,0,70,1995.500,2983.500
139,DSC_0264.JPG,0,114,1931.500,3091.500
141,DSC_0264.JPG,0,143,2171.500,3355.500
143,DSC_0264.JPG,0,164,2155.500,3495.500
145,DSC_0264.JPG,0,84,2359.500,3511.500
147,DSC_0264.JPG,0,117,2295.500,3403.500
149,DSC_0264.JPG,0,98,2655.500,3543.500
151,DSC_0264.JPG,0,116,2939.500,3523.500
153,DSC_0264.JPG,0,134,2487.500,3083.500
155,DSC_0264.JPG,0,141,2519.500,3047.500
157,DSC_0264.JPG,0,164,2555.500,3075.500
159,DSC_0264.JPG,0,169,2279.500,2655.500
161,DSC_0264.JPG,0,138,2047.500,2567.500
163,DSC_0264.JPG,0,77,1911.500,2391.500
165,DSC_0264.JPG,0,105,2119.500,2211.500
167,DSC_0264.JPG,0,173,2227.500,2003.500
169,DSC_0264.JPG,0,45,2227.500,1747.500
171,DSC_0264.JPG,0,97,1567.500,2191.500
173,DSC_0264.JPG,0,128,1655.500,2135.500
175,DSC_0264.JPG,0,152,1287.500,2479.500
177,DSC_0264.JPG,0,173,1115.500,2243.500
179,DSC_0264.JPG,0,50,999.500,2007.500
181,DSC_0264.JPG,0,101,775.500,1855.500
183,DSC_0264.JPG,0,155,651.500,1779.500
185,DSC_0264.JPG,0,67,735.500,1123.500
187,DSC_0264.JPG,0,95,923.500,1027.500
189,DSC_0264.JPG,0,172,1039.500,915.500
191,DSC_0264.JPG,0,127,1227.500,1163.500
193,DSC_0264.JPG,0,80,1379.500,1295.500
195,DSC_0264.JPG,0,119,1147.500,1083.500
197,DSC_0264.JPG,0,128,1719.500,1003.500
199,DSC_0264.JPG,0,189,1791.500,1223.500
201,DSC_0264.JPG,0,172,1775.500,1315.500
203,DSC_0264.JPG,0,138,1623.500,1435.500
205,DSC_0264.JPG,0,170,1527.500,1623.500
207,DSC_0264.JPG,0,170,1371.500,1735.500
209,DSC_0264.JPG,0,71,2111.500,1371.500
211,DSC_0264.JPG,0,196,2263.500,1451.500
213,DSC_0264.JPG,0,186,2375.500,1599.500
215,DSC_0264.JPG,0,99,2215.500,887.500
217,DSC_0264.JPG,0,54,2027.500,1019.500
219,DSC_0264.JPG,0,140,1923.500,1191.500
221,DSC_0264.JPG,0,57,2055.500,655.500
223,DSC_0264.JPG,0,95,2207.500,855.500
225,DSC_0264.JPG,0,93,2379.500,1031.500
227,DSC_0264.JPG,0,129,2527.500,1119.500
229,DSC_0264.JPG,0,115,2687.500,1407.500
231,DSC_0264.JPG,0,61,2959.500,1403.500
233,DSC_0264.JPG,0,153,3067.500,1247.500
235,DSC_0264.JPG,0,140,3207.500,1199.500
237,DSC_0264.JPG,0,68,3347.500,1399.500
239,DSC_0264.JPG,0,151,3323.500,1651.500
241,DSC_0264.JPG,0,104,3087.500,1787.500
243,DSC_0264.JPG,0,146,2999.500,1915.500
245,DSC_0264.JPG,0,77,2891.500,2071.500
247,DSC_0264.JPG,0,148,2999.500,2271.500
249,DSC_0264.JPG,0,176,3119.500,2375.500
251,DSC_0264.JPG,0,98,3335.500,2375.500
253,DSC_0264.JPG,0,37,3343.500,2083.500
255,DSC_0264.JPG,0,162,3359.500,1951.500
257,DSC_0264.JPG,0,114,436.000,836.000
259,DSC_0264.JPG,0,160,659.500,487.500
261,DSC_0264.JPG,0,178,707.500,699.500
263,DSC_0264.JPG,0,163,1179.500,379.500
265,DSC_0264.JPG,0,80,1267.500,603.500
267,DSC_0264.JPG,0,107,1427.500,375.500
269,DSC_0264.JPG,0,73,1927.500,395.500
271,DSC_0264.JPG,0,200,1907.500,503.500
273,DSC_0264.JPG,0,89,1627.500,1035.500
275,DSC_0264.JPG,0,66,1435.500,1219.500
277,DSC_0264.JPG,0,141,1823.500,1171.500
279,DSC_0264.JPG,0,150,1659.500,1363.500
281,DSC_0264.JPG,0,108,1995.500,1767.500
283,DSC_0264.JPG,0,68,2235.500,1859.500
285,DSC_0264.JPG,0,106,2227.500,1519.500
287,DSC_0264.JPG,0,73,2447.500,1759.500
289,DSC_0264.JPG,0,77,2687.500,1583.500
291,DSC_0264.JPG,0,139,2823.500,1459.500
293,DSC_0264.JPG,0,126,2567.500,1167.500
295,DSC_0264.JPG,0,104,2823.500,883.500
297,DSC_0264.JPG,0,106,2487.500,479.500
299,DSC_0264.JPG,0,120,2987.500,375.500
301,DSC_0264.JPG,0,148,3347.500,671.500
303,DSC_0264.JPG,0,111,3411.500,1075.500
305,DSC_0264.JPG,0,151,3367.500,1435.500
307,DSC_0264.JPG,0,199,3407.500,1815.500
309,DSC_0264.JPG,0,106,3411.500,2311.500
311,DSC_0264.JPG,0,106,3391.500,2631.500
313,DSC_0264.JPG,0,178,3351.500,2959.500
315,DSC_0264.JPG,0,145,2979.500,3375.500
317,DSC_0264.JPG,0,150,3107.500,3199.500
319,DSC_0264.JPG,0,113,2863.500,2767.500
321,DSC_0264.JPG,0,78,2807.500,2627.500
323,DSC_0264.JPG,0,149,2559.500,2451.500
325,DSC_0264.JPG,0,171,2435.500,2327.500
327,DSC_0264.JPG,0,167,2219.500,2107.500
329,DSC_0264.JPG,0,107,2319.500,1907.500
331,DSC_0264.JPG,0,68,1907.500,1803.500
333,DSC_0264.JPG,0,92,1755.500,1979.500
335,DSC_0264.JPG,0,43,1567.500,2047.500
337,DSC_0264.JPG,0,57,1351.500,1895.500
339,DSC_0264.JPG,0,34,1047.500,1835.500
341,DSC_0264.JPG,0,84,955.500,1987.500
343,DSC_0264.JPG,0,141,1007.500,2151.500
345,DSC_0264.JPG,0,111,1015.500,1675.500
347,DSC_0264.JPG,0,90,971.500,1591.500
349,DSC_0264.JPG,0,117,831.500,1807.500
351,DSC_0264.JPG,0,118,399.500,1747.500
353,DSC_0264.JPG,0,177,331.500,1999.500
355,DSC_0264.JPG,0,176,427.500,2259.500
357,DSC_0264.JPG,0,46,499.500,2443.500
359,DSC_0264.JPG,0,197,743.500,2411.500
361,DSC_0264.JPG,0,125,623.500,2463.500
363,DSC_0264.JPG,0,187,443.500,2587.500
365,DSC_0264.JPG,0,79,435.500,2875.500
367,DSC_0264.JPG,0,131,567.500,3287.500
369,DSC_0264.JPG,0,153,531.500,3087.500
371,DSC_0264.JPG,0,93,763.500,3395.500
373,DSC_0264.JPG,0,192,607.500,3051.500
375,DSC_0264.JPG,0,52,847.500,3375.500
377,DSC_0264.JPG,0,58,1027.500,3455.500
379,DSC_0264.JPG,0,173,1567.500,3515.500
381,DSC_0264.JPG,0,135,1647.500,3375.500
383,DSC_0264.JPG,0,163,1667.500,3307.500
385,DSC_0264.JPG,0,125,1351.500,3071.500
387,DSC_0264.JPG,0,28,1639.500,2659.500
389,DSC_0264.JPG,0,98,1687.500,2759.500
391,DSC_0264.JPG,0,100,1903.500,3019.500
393,DSC_0264.JPG,0,69,1995.500,2983.500
395,DSC_0264.JPG,0,109,1931.500,3091.500
397,DSC_0264.JPG,0,138,2171.500,3355.500
399,DSC_0264.JPG,0,161,2155.500,3495.500
401,DSC_0264.JPG,0,81,2359.500,3511.500
403,DSC_0264.JPG,0,114,2295.500,3403.500
405,DSC_0264.JPG,0,98,2655.500,3543.500
407,DSC_0264.JPG,0,115,2939.500,3523.500
409,DSC_0264.JPG,0,133,2487.500,3083.500
411,DSC_0264.JPG,0,138,2519.500,3047.500
413,DSC_0264.JPG,0,161,2555.500,3075.500
415,DSC_0264.JPG,0,168,2279.500,2655.500
417,DSC_0264.JPG,0,139,2047.500,2567.500
419,DSC_0264.JPG,0,72,1911.500,2391.500
421,DSC_0264.JPG,0,104,2119.500,2211.500
423,DSC_0264.JPG,0,172,2227.500,2003.500
425,DSC_0264.JPG,0,44,2227.500,1747.500
427,DSC_0264.JPG,0,93,1567.500,2191.500
429,DSC_0264.JPG,0,122,1655.500,2135.500
431,DSC_0264.JPG,0,146,1287.500,2479.500
433,DSC_0264.JPG,0,168,1115.500,2243.500
435,DSC_0264.JPG,0,49,999.500,2007.500
437,DSC_0264.JPG,0,98,775.500,1855.500
439,DSC_0264.JPG,0,147,651.500,1779.500
441,DSC_0264.JPG,0,64,735.500,1123.500
443,DSC_0264.JPG,0,94,923.500,1027.500
445,DSC_0264.JPG,0,168,1039.500,915.500
447,DSC_0264.JPG,0,126,1227.500,1163.500
449,DSC_0264.JPG,0,76,1379.500,1295.500
451,DSC_0264.JPG,0,116,1147.500,1083.500
453,DSC_0264.JPG,0,128,1719.500,1003.500
455,DSC_0264.JPG,0,186,1791.500,1223.500
457,DSC_0264.JPG,0,170,1775.500,1315.500
459,DSC_0264.JPG,0,138,1623.500,1435.500
461,DSC_0264.JPG,0,163,1527.500,1623.500
463,DSC_0264.JPG,0,166,1371.500,1735.500
465,DSC_0264.JPG,0,68,2111.500,1371.500
467,DSC_0264.JPG,0,192,2263.500,1451.500
469,DSC_0264.JPG,0,185,2375.500,1599.500
471,DSC_0264.JPG,0,96,2215.500,887.500
473,DSC_0264.JPG,0,51,2027.500,1019.500
475,DSC_0264.JPG,0,137,1923.500,1191.500
477,DSC_0264.JPG,0,53,2055.500,655.500
479,DSC_0264.JPG,0,94,2207.500,855.500
481,DSC_0264.JPG,0,86,2379.500,1031.500
483,DSC_0264.JPG,0,124,2527.500,1119.500
485,DSC_0264.JPG,0,112,2687.500,1407.500
487,DSC_0264.JPG,0,61,2959.500,1403.500
489,DSC_0264.JPG,0,150,3067.500,1247.500
491,DSC_0264.JPG,0,136,3207.500,1199.500
493,DSC_0264.JPG,0,61,3347.500,1399.500
495,DSC_0264.JPG,0,151,3323.500,1651.500
497,DSC_0264.JPG,0,100,3087.500,1787.500
499,DSC_0264.JPG,0,141,2999.500,1915.500
501,DSC_0264.JPG,0,76,2891.500,2071.500
503,DSC_0264.JPG,0,147,2999.500,2271.500
505,DSC_0264.JPG,0,177,3119.500,2375.500
507,DSC_0264.JPG,0,98,3335.500,2375.500
509,DSC_0264.JPG,0,36,3343.500,2083.500
511,DSC_0264.JPG,0,158,3359.500,1951.500
513,DSC_0264.JPG,0,112,436.000,836.000
515,DSC_0264.JPG,0,146,659.500,487.500
517,DSC_0264.JPG,0,167,707.500,699.500
519,DSC_0264.JPG,0,161,1179.500,379.500
521,DSC_0264.JPG,0,75,1267.500,603.500
523,DSC_0264.JPG,0,102,1427.500,375.500
525,DSC_0264.JPG,0,71,1927.500,395.500
527,DSC_0264.JPG,0,186,1907.500,503.500
529,DSC_0264.JPG,0,87,1627.500,1035.500
531,DSC_0264.JPG,0,63,1435.500,1219.500
533,DSC_0264.JPG,0,136,1823.500,1171.500
535,DSC_0264.JPG,0,145,1659.500,1363.500
537,DSC_0264.JPG,0,105,1995.500,1767.500
539,DSC_0264.JPG,0,66,2235.500,1859.500
541,DSC_0264.JPG,0,102,2227.500,1519.500
543,DSC_0264.JPG,0,74,2447.500,1759.500
545,DSC_0264.JPG,0,72,2687.500,1583.500
547,DSC_0264.JPG,0,134,2823.500,1459.500
549,DSC_0264.JPG,0,122,2567.500,1167.500
551,DSC_0264.JPG,0,101,2823.500,883.500
553,DSC_0264.JPG,0,97,2487.500,479.500
555,DSC_0264.JPG,0,112,2987.500,375.500
557,DSC_0264.JPG,0,143,3347.500,671.500
559,DSC_0264.JPG,0,108,3411.500,1075.500
561,DSC_0264.JPG,0,140,3367.500,1435.500
563,DSC_0264.JPG,0,189,3407.500,1815.500
565,DSC_0264.JPG,0,94,3411.500,2311.500
567,DSC_0264.JPG,0,97,3391.500,2631.500
569,DSC_0264.JPG,0,166,3351.500,2959.500
571,DSC_0264.JPG,0,140,2979.500,3375.500
573,DSC_0264.JPG,0,137,3107.500,3199.500
575,DSC_0264.JPG,0,101,2863.500,2767.500
577,DSC_0264.JPG,0,76,2807.500,2627.500
579,DSC_0264.JPG,0,136,2559.500,2451.500
581,DSC_0264.JPG,0,159,2435.500,2327.500
583,DSC_0264.JPG,0,159,2219.500,2107.500
585,DSC_0264.JPG,0,105,2319.500,1907.500
587,DSC_0264.JPG,0,61,1907.500,1803.500
589,DSC_0264.JPG,0,90,1755.500,1979.500
591,DSC_0264.JPG,0,44,1567.500,2047.500
593,DSC_0264.JPG,0,54,1351.500,1895.500
595,DSC_0264.JPG,0,32,1047.500,1835.500
597,DSC_0264.JPG,0,82,955.500,1987.500
599,DSC_0264.JPG,0,136,1007.500,2151.500
601,DSC_0264.JPG,0,103,1015.500,1675.500
603,DSC_0264.JPG,0,86,971.500,1591.500
605,DSC_0264.JPG,0,112,831.500,1807.500
607,DSC_0264.JPG,0,112,399.500,1747.500
609,DSC_0264.JPG,0,167,331.500,1999.500
611,DSC_0264.JPG,0,158,427.500,2259.500
613,DSC_0264.JPG,0,44,499.500,2443.500
615,DSC_0264.JPG,0,195,743.500,2411.500
617,DSC_0264.JPG,0,118,623.500,2463.500
619,DSC_0264.JPG,0,179,443.500,2587.500
621,DSC_0264.JPG,0,74,435.500,2875.500
623,DSC_0264.JPG,0,123,567.500,3287.500
625,DSC_0264.JPG,0,148,531.500,3087.500
627,DSC_0264.JPG,0,88,763.500,3395.500
629,DSC_0264.JPG,0,177,607.500,3051.500
631,DSC_0264.JPG,0,46,847.500,3375.500
633,DSC_0264.JPG,0,50,1027.500,3455.500
635,DSC_0264.JPG,0,165,1567.500,3515.500
637,DSC_0264.JPG,0,126,1647.500,3375.500
639,DSC_0264.JPG,0,142,1667.500,3307.500
641,DSC_0264.JPG,0,117,1351.500,3071.500
643,DSC_0264.JPG,0,26,1639.500,2659.500
645,DSC_0264.JPG,0,99,1687.500,2759.500
647,DSC_0264.JPG,0,97,1903.500,3019.500
649,DSC_0264.JPG,0,67,1995.500,2983.500
651,DSC_0264.JPG,0,106,1931.500,3091.500
653,DSC_0264.JPG,0,132,2171.500,3355.500
655,DSC_0264.JPG,0,146,2155.500,3495.500
657,DSC_0264.JPG,0,76,2359.500,3511.500
659,DSC_0264.JPG,0,109,2295.500,3403.500
661,DSC_0264.JPG,0,96,2655.500,3543.500
663,DSC_0264.JPG,0,113,2939.500,3523.500
665,DSC_0264.JPG,0,131,2487.500,3083.500
667,DSC_0264.JPG,0,131,2519.500,3047.500
669,DSC_0264.JPG,0,152,2555.500,3075.500
671,DSC_0264.JPG,0,166,2279.500,2655.500
673,DSC_0264.JPG,0,131,2047.500,2567.500
675,DSC_0264.JPG,0,68,1911.500,2391.500
677,DSC_0264.JPG,0,100,2119.500,2211.500
679,DSC_0264.JPG,0,167,2227.500,2003.500
681,DSC_0264.JPG,0,42,2227.500,1747.500
683,DSC_0264.JPG,0,82,1567.500,2191.500
685,DSC_0264.JPG,0,110,1655.500,2135.500
687,DSC_0264.JPG,0,130,1287.500,2479.500
689,DSC_0264.JPG,0,148,1115.500,2243.500
691,DSC_0264.JPG,0,44,999.500,2007.500
693,DSC_0264.JPG,0,93,775.500,1855.500
695,DSC_0264.JPG,0,134,651.500,1779.500
697,DSC_0264.JPG,0,55,735.500,1123.500
699,DSC_0264.JPG,0,90,923.500,1027.500
701,DSC_0264.JPG,0,167,1039.500,915.500
703,DSC_0264.JPG,0,121,1227.500,1163.500
705,DSC_0264.JPG,0,75,1379.500,1295.500
707,DSC_0264.JPG,0,107,1147.500,1083.500
709,DSC_0264.JPG,0,120,1719.500,1003.500
711,DSC_0264.JPG,0,179,1791.500,1223.500
713,DSC_0264.JPG,0,158,1775.500,1315.500
715,DSC_0264.JPG,0,138,1623.500,1435.500
717,DSC_0264.JPG,0,153,1527.500,1623.500
719,DSC_0264.JPG,0,163,1371.500,1735.500
721,DSC_0264.JPG,0,63,2111.500,1371.500
723,DSC_0264.JPG,0,183,2263.500,1451.500
725,DSC_0264.JPG,0,181,2375.500,1599.500
727,DSC_0264.JPG,0,91,2215.500,887.500
729,DSC_0264.JPG,0,46,2027.500,1019.500
731,DSC_0264.JPG,0,130,1923.500,1191.500
733,DSC_0264.JPG,0,50,2055.500,655.500
735,DSC_0264.JPG,0,89,2207.500,855.500
737,DSC_0264.JPG,0,80,2379.500,1031.500
739,DSC_0264.JPG,0,118,2527.500,1119.500
741,DSC_0264.JPG,0,107,2687.500,1407.500
743,DSC_0264.JPG,0,53,2959.500,1403.500
745,DSC_0264.JPG,0,145,3067.500,1247.500
747,DSC_0264.JPG,0,133,3207.500,1199.500
749,DSC_0264.JPG,0,55,3347.500,1399.500
751,DSC_0264.JPG,0,143,3323.500,1651.500
753,DSC_0264.JPG,0,99,3087.500,1787.500
755,DSC_0264.JPG,0,135,2999.500,1915.500
757,DSC_0264.JPG,0,72,2891.500,2071.500
759,DSC_0264.JPG,0,142,2999.500,2271.500
761,DSC_0264.JPG,0,169,3119.500,2375.500
763,DSC_0264.JPG,0,88,3335.500,2375.500
765,DSC_0264.JPG,0,31,3343.500,2083.500
767,DSC_0264.JPG,0,146,3359.500,1951.500
769,DSC_0264.JPG,0,114,436.000,836.000
771,DSC_0264.JPG,0,155,659.500,487.500
773,DSC_0264.JPG,0,176,707.500,699.500
775,DSC_0264.JPG,0,162,1179.500,379.500
777,DSC_0264.JPG,0,78,1267.500,603.500
779,DSC_0264.JPG,0,105,1427.500,375.500
781,DSC_0264.JPG,0,72,1927.500,395.500
783,DSC_0264.JPG,0,197,1907.500,503.500
785,DSC_0264.JPG,0,89,1627.500,1035.500
787,DSC_0264.JPG,0,66,1435.500,1219.500
789,DSC_0264.JPG,0,140,1823.500,1171.500
791,DSC_0264.JPG,0,149,1659.500,1363.500
793,DSC_0264.JPG,0,108,1995.500,1767.500
795,DSC_0264.JPG,0,67,2235.500,1859.500
797,DSC_0264.JPG,0,105,2227.500,1519.500
799,DSC_0264.JPG,0,74,2447.500,1759.500
801,DSC_0264.JPG,0,76,2687.500,1583.500
803,DSC_0264.JPG,0,138,2823.500,1459.500
805,DSC_0264.JPG,0,126,2567.500,1167.500
807,DSC_0264.JPG,0,104,2823.500,883.500
809,DSC_0264.JPG,0,104,2487.500,479.500
811,DSC_0264.JPG,0,117,2987.500,375.500
813,DSC_0264.JPG,0,147,3347.500,671.500
815,DSC_0264.JPG,0,109,3411.500,1075.500
817,DSC_0264.JPG,0,149,3367.500,1435.500
819,DSC_0264.JPG,0,196,3407.500,1815.500
821,DSC_0264.JPG,0,103,3411.500,2311.500
823,DSC_0264.JPG,0,104,3391.500,2631.500
825,DSC_0264.JPG,0,175,3351.500,2959.500
827,DSC_0264.JPG,0,143,2979.500,3375.500
829,DSC_0264.JPG,0,146,3107.500,3199.500
831,DSC_0264.JPG,0,111,2863.500,2767.500
833,DSC_0264.JPG,0,77,2807.500,2627.500
835,DSC_0264.JPG,0,147,2559.500,2451.500
837,DSC_0264.JPG,0,168,2435.500,2327.500
839,DSC_0264.JPG,0,164,2219.500,2107.500
841,DSC_0264.JPG,0,107,2319.500,1907.500
843,DSC_0264.JPG,0,67,1907.500,1803.500
845,DSC_0264.JPG,0,92,1755.500,1979.500
847,DSC_0264.JPG,0,44,1567.500,2047.500
849,DSC_0264.JPG,0,57,1351.500,1895.500
851,DSC_0264.JPG,0,34,1047.500,1835.500
853,DSC_0264.JPG,0,84,955.500,1987.500
855,DSC_0264.JPG,0,140,1007.500,2151.500
857,DSC_0264.JPG,0,108,1015.500,1675.500
859,DSC_0264.JPG,0,90,971.500,1591.500
861,DSC_0264.JPG,0,116,831.500,1807.500
863,DSC_0264.JPG,0,116,399.500,1747.500
865,DSC_0264.JPG,0,174,331.500,1999.500
867,DSC_0264.JPG,0,170,427.500,2259.500
869,DSC_0264.JPG,0,45,499.500,2443.500
871,DSC_0264.JPG,0,197,743.500,2411.500
873,DSC_0264.JPG,0,124,623.500,2463.500
875,DSC_0264.JPG,0,184,443.500,2587.500
877,DSC_0264.JPG,0,78,435.500,2875.500
879,DSC_0264.JPG,0,128,567.500,3287.500
881,DSC_0264.JPG,0,152,531.500,3087.500
883,DSC_0264.JPG,0,91,763.500,3395.500
885,DSC_0264.JPG,0,188,607.500,3051.500
887,DSC_0264.JPG,0,50,847.500,3375.500
889,DSC_0264.JPG,0,55,1027.500,3455.500
891,DSC_0264.JPG,0,170,1567.500,3515.500
893,DSC_0264.JPG,0,133,1647.500,3375.500
895,DSC_0264.JPG,0,159,1667.500,3307.500
897,DSC_0264.JPG,0,125,1351.500,3071.500
899,DSC_0264.JPG,0,28,1639.500,2659.500
901,DSC_0264.JPG,0,99,1687.500,2759.500
903,DSC_0264.JPG,0,100,1903.500,3019.500
905,DSC_0264.JPG,0,69,1995.500,2983.500
907,DSC_0264.JPG,0,110,1931.500,3091.500
909,DSC_0264.JPG,0,138,2171.500,3355.500
911,DSC_0264.JPG,0,157,2155.500,3495.500
913,DSC_0264.JPG,0,80,2359.500,3511.500
915,DSC_0264.JPG,0,113,2295.500,3403.500
917,DSC_0264.JPG,0,97,2655.500,3543.500
919,DSC_0264.JPG,0,115,2939.500,3523.500
921,DSC_0264.JPG,0,133,2487.500,3083.500
923,DSC_0264.JPG,0,137,2519.500,3047.500
925,DSC_0264.JPG,0,159,2555.500,3075.500
927,DSC_0264.JPG,0,168,2279.500,2655.500
929,DSC_0264.JPG,0,136,2047.500,2567.500
931,DSC_0264.JPG,0,72,1911.500,2391.500
933,DSC_0264.JPG,0,103,2119.500,2211.500
935,DSC_0264.JPG,0,171,2227.500,2003.500
937,DSC_0264.JPG,0,44,2227.500,1747.500
939,DSC_0264.JPG,0,91,1567.500,2191.500
941,DSC_0264.JPG,0,120,1655.500,2135.500
943,DSC_0264.JPG,0,143,1287.500,2479.500
945,DSC_0264.JPG,0,163,1115.500,2243.500
947,DSC_0264.JPG,0,48,999.500,2007.500
949,DSC_0264.JPG,0,97,775.500,1855.500
951,DSC_0264.JPG,0,145,651.500,1779.500
953,DSC_0264.JPG,0,62,735.500,1123.500
955,DSC_0264.JPG,0,93,923.500,1027.500
957,DSC_0264.JPG,0,169,1039.500,915.500
959,DSC_0264.JPG,0,125,1227.500,1163.500
961,DSC_0264.JPG,0,77,1379.500,1295.500
963,DSC_0264.JPG,0,114,1147.500,1083.500
965,DSC_0264.JPG,0,125,1719.500,1003.500
967,DSC_0264.JPG,0,185,1791.500,1223.500
969,DSC_0264.JPG,0,167,1775.500,1315.500
971,DSC_0264.JPG,0,138,1623.500,1435.500
973,DSC_0264.JPG,0,162,1527.500,1623.500
975,DSC_0264.JPG,0,166,1371.500,1735.500
977,DSC_0264.JPG,0,67,2111.500,1371.500
979,DSC_0264.JPG,0,190,2263.500,1451.500
981,DSC_0264.JPG,0,184,2375.500,1599.500
983,DSC_0264.JPG,0,95,2215.500,887.500
985,DSC_0264.JPG,0,50,2027.500,1019.500
987,DSC_0264.JPG,0,136,1923.500,1191.500
989,DSC_0264.JPG,0,53,2055.500,655.500
991,DSC_0264.JPG,0,93,2207.500,855.500
993,DSC_0264.JPG,0,86,2379.500,1031.500
995,DSC_0264.JPG,0,124,2527.500,1119.500
997,DSC_0264.JPG,0,111,2687.500,1407.500
999,DSC_0264.JPG,0,58,2959.500,1403.500
1001,DSC_0264.JPG,0,149,3067.500,1247.500
1003,DSC_0264.JPG,0,136,3207.500,1199.500
1005,DSC_0264.JPG,0,61,3347.500,1399.500
1007,DSC_0264.JPG,0,148,3323.500,1651.500
1009,DSC_0264.JPG,0,101,3087.500,1787.500
1011,DSC_0264.JPG,0,141,2999.500,1915.500
1013,DSC_0264.JPG,0,75,2891.500,2071.500
1015,DSC_0264.JPG,0,146,2999.500,2271.500
1017,DSC_0264.JPG,0,174,3119.500,2375.500
1019,DSC_0264.JPG,0,95,3335.500,2375.500
1021,DSC_0264.JPG,0,35,3343.500,2083.500
1023,DSC_0264.JPG,0,155,3359.500,1951.500
1025,DSC_0264.JPG,0,114,436.000,836.000
1027,DSC_0264.JPG,0,158,659.500,487.500
1029,DSC_0264.JPG,0,178,707.500,699.500
1031,DSC_0264.JPG,0,163,1179.500,379.500
1033,DSC_0264.JPG,0,79,1267.500,603.500
1035,DSC_0264.JPG,0,106,1427.500,375.500
1037,DSC_0264.JPG,0,73,1927.500,395.500
1039,DSC_0264.JPG,0,200,1907.500,503.500
1041,DSC_0264.JPG,0,89,1627.500,1035.500
1043,DSC_0264.JPG,0,67,1435.500,1219.500
1045,DSC_0264.JPG,0,141,1823.500,1171.500
1047,DSC_0264.JPG,0,150,1659.500,1363.500
1049,DSC_0264.JPG,0,109,1995.500,1767.500
1051,DSC_0264.JPG,0,68,2235.500,1859.500
1053,DSC_0264.JPG,0,106,2227.500,1519.500
1055,DSC_0264.JPG,0,74,2447.500,1759.500
1057,DSC_0264.JPG,0,77,2687.500,1583.500
1059,DSC_0264.JPG,0,139,2823.500,1459.500
1061,DSC_0264.JPG,0,127,2567.500,1167.500
1063,DSC_0264.JPG,0,105,2823.500,883.500
1065,DSC_0264.JPG,0,106,2487.500,479.500
1067,DSC_0264.JPG,0,119,2987.500,375.500
1069,DSC_0264.JPG,0,148,3347.500,671.500
1071,DSC_0264.JPG,0,110,3411.500,1075.500
1073,DSC_0264.JPG,0,151,3367.500,1435.500
1075,DSC_0264.JPG,0,198,3407.500,1815.500
1077,DSC_0264.JPG,0,105,3411.500,2311.500
1079,DSC_0264.JPG,0,106,3391.500,2631.500
1081,DSC_0264.JPG,0,177,3351.500,2959.500
1083,DSC_0264.JPG,0,144,2979.500,3375.500
1085,DSC_0264.JPG,0,149,3107.500,3199.500
1087,DSC_0264.JPG,0,113,2863.500,2767.500
1089,DSC_0264.JPG,0,78,2807.500,2627.500
1091,DSC_0264.JPG,0,150,2559.500,2451.500
1093,DSC_0264.JPG,0,170,2435.500,2327.500
1095,DSC_0264.JPG,0,166,2219.500,2107.500
1097,DSC_0264.JPG,0,107,2319.500,1907.500
1099,DSC_0264.JPG,0,68,1907.500,1803.500
1101,DSC_0264.JPG,0,92,1755.500,1979.500
1103,DSC_0264.JPG,0,44,1567.500,2047.500
1105,DSC_0264.JPG,0,58,1351.500,1895.500
1107,DSC_0264.JPG,0,34,1047.500,1835.500
1109,DSC_0264.JPG,0,84,955.500,1987.500
1111,DSC_0264.JPG,0,141,1007.500,2151.500
1113,DSC_0264.JPG,0,110,1015.500,1675.500
1115,DSC_0264.JPG,0,91,971.500,1591.500
1117,DSC_0264.JPG,0,117,831.500,1807.500
1119,DSC_0264.JPG,0,117,399.500,1747.500
1121,DSC_0264.JPG,0,176,331.500,1999.500
1123,DSC_0264.JPG,0,174,427.500,2259.500
1125,DSC_0264.JPG,0,46,499.500,2443.500
1127,DSC_0264.JPG,0,197,743.500,2411.500
1129,DSC_0264.JPG,0,125,623.500,2463.500
1131,DSC_0264.JPG,0,186,443.500,2587.500
1133,DSC_0264.JPG,0,79,435.500,2875.500
1135,DSC_0264.JPG,0,130,567.500,3287.500
1137,DSC_0264.JPG,0,153,531.500,3087.500
1139,DSC_0264.JPG,0,92,763.500,3395.500
1141,DSC_0264.JPG,0,191,607.500,3051.500
1143,DSC_0264.JPG,0,51,847.500,3375.500
1145,DSC_0264.JPG,0,57,1027.500,3455.500
1147,DSC_0264.JPG,0,172,1567.500,3515.500
1149,DSC_0264.JPG,0,135,1647.500,3375.500
1151,DSC_0264.JPG,0,163,1667.500,3307.500
1153,DSC_0264.JPG,0,126,1351.500,3071.500
1155,DSC_0264.JPG,0,28,1639.500,2659.500
1157,DSC_0264.JPG,0,99,1687.500,2759.500
1159,DSC_0264.JPG,0,101,1903.500,3019.500
1161,DSC_0264.JPG,0,69,1995.500,2983.500
1163,DSC_0264.JPG,0,110,1931.500,3091.500
1165,DSC_0264.JPG,0,139,2171.500,3355.500
1167,DSC_0264.JPG,0,160,2155.500,3495.500
1169,DSC_0264.JPG,0,81,2359.500,3511.500
1171,DSC_0264.JPG,0,114,2295.500,3403.500
1173,DSC_0264.JPG,0,98,2655.500,3543.500
1175,DSC_0264.JPG,0,115,2939.500,3523.500
1177,DSC_0264.JPG,0,133,2487.500,3083.500
1179,DSC_0264.JPG,0,138,2519.500,3047.500
1181,DSC_0264.JPG,0,161,2555.500,3075.500
1183,DSC_0264.JPG,0,168,2279.500,2655.500
1185,DSC_0264.JPG,0,138,2047.500,2567.500
1187,DSC_0264.JPG,0,73,1911.500,2391.500
1189,DSC_0264.JPG,0,104,2119.500,2211.500
1191,DSC_0264.JPG,0,172,2227.500,2003.500
1193,DSC_0264.JPG,0,44,2227.500,1747.500
1195,DSC_0264.JPG,0,93,1567.500,2191.500
1197,DSC_0264.JPG,0,122,1655.500,2135.500
1199,DSC_0264.JPG,0,146,1287.500,2479.500
1201,DSC_0264.JPG,0,167,1115.500,2243.500
1203,DSC_0264.JPG,0,49,999.500,2007.500
1205,DSC_0264.JPG,0,98,775.500,1855.500
1207,DSC_0264.JPG,0,148,651.500,1779.500
1209,DSC_0264.JPG,0,64,735.500,1123.500
1211,DSC_0264.JPG,0,94,923.500,1027.500
1213,DSC_0264.JPG,0,169,1039.500,915.500
1215,DSC_0264.JPG,0,126,1227.500,1163.500
1217,DSC_0264.JPG,0,77,1379.500,1295.500
1219,DSC_0264.JPG,0,116,1147.500,1083.500
1221,DSC_0264.JPG,0,127,1719.500,1003.500
1223,DSC_0264.JPG,0,186,1791.500,1223.500
1225,DSC_0264.JPG,0,169,1775.500,1315.500
1227,DSC_0264.JPG,0,138,1623.500,1435.500
1229,DSC_0264.JPG,0,164,1527.500,1623.500
1231,DSC_0264.JPG,0,167,1371.500,1735.500
1233,DSC_0264.JPG,0,68,2111.500,1371.500
1235,DSC_0264.JPG,0,192,2263.500,1451.500
1237,DSC_0264.JPG,0,185,2375.500,1599.500
1239,DSC_0264.JPG,0,96,2215.500,887.500
1241,DSC_0264.JPG,0,51,2027.500,1019.500
1243,DSC_0264.JPG,0,137,1923.500,1191.500
1245,DSC_0264.JPG,0,54,2055.500,655.500
1247,DSC_0264.JPG,0,94,2207.500,855.500
1249,DSC_0264.JPG,0,87,2379.500,1031.500
1251,DSC_0264.JPG,0,125,2527.500,1119.500
1253,DSC_0264.JPG,0,112,2687.500,1407.500
1255,DSC_0264.JPG,0,60,2959.500,1403.500
1257,DSC_0264.JPG,0,150,3067.500,1247.500
1259,DSC_0264.JPG,0,137,3207.500,1199.500
1261,DSC_0264.JPG,0,62,3347.500,1399.500
1263,DSC_0264.JPG,0,150,3323.500,1651.500
1265,DSC_0264.JPG,0,101,3087.500,1787.500
1267,DSC_0264.JPG,0,142,2999.500,1915.500
1269,DSC_0264.JPG,0,76,2891.500,2071.500
1271,DSC_0264.JPG,0,147,2999.500,2271.500
1273,DSC_0264.JPG,0,176,3119.500,2375.500
1275,DSC_0264.JPG,0,97,3335.500,2375.500
1277,DSC_0264.JPG,0,36,3343.500,2083.500
1279,DSC_0264.JPG,0,158,3359.500,1951.500
1280,0.299R+0.587G+0.114B,0,155,3339.500,1891.500